File: beech_example.csv
#EXPORTTYPE:,DATA ALL,,,,
#FILE:,Program 3 Mixchar2 - Buk.ngb-ss5,,,,
#FORMAT:,NETZSCH5,,,,
#FTYPE:,UNICODE,,,,
#IDENTITY:,Program 3 Mixchar2 - B,,,,
#MTYPE:,TG,,,,
#INSTRUMENT:,NETZSCH STA 449F5,,,,
#PROJECT:,,,,,
#DATE/TIME:,17. 9. 2025 12:22:28 (UTC+2),,,,
#CORR. FILE:,,,,,
#TEMPCAL:,15/11/2022 7:48,,,,
#SENSITIVITY:,6/12/2022 14:50,,,,
#LABORATORY:,MTF STU,,,,
#OPERATOR:,td,,,,
#REMARK:,,,,,
#SAMPLE:,Program 3 Mixchar2 - B,,,,
#SAMPLE MASS /mg:,10.6531,,,,
#MATERIAL:,wood,,,,
#REFERENCE:,Empty Al2O3,,,,
#REFERENCE MASS /mg:,0,,,,
#TYPE OF CRUCIBLE:,"Al2O3 85 µl, open",,,,
#SAMPLE CRUCIBLE MASS /mg:,142.9,,,,
#REFERENCE CRUCIBLE MASS /mg:,147,,,,
#PURGE 1 MFC:,"OXYGEN,252,5 ml/min",,,,
#PURGE 2 MFC:,"NITROGEN,250,0 ml/min",,,,
#PROTECTIVE MFC:,"NITROGEN,250,0 ml/min",,,,
#DSC RANGE /µV:,5000,,,,
#TG RANGE /mg:,35000,,,,
#TAU-R:,---,,,,
#CORR. CODE:,0,,,,
#EXO:,1,,,,
#RANGE:,35°C....815°C/-10.0....10.0K/min,,,,
#SEGMENT:,S1-6/6,,,,
#SEG. 1:,35°C/10.0(K/min)/105°C,,,,
#SEG. 2:,105°C/02:00/105°C,,,,
#SEG. 3:,105°C/10.0(K/min)/750°C,,,,
#SEG. 4:,750°C/10.0(K/min)/600°C,,,,
#SEG. 5:,600°C/3.6(K/min)/815°C,,,,
#SEG. 6:,815°C/02:00/815°C,,,,
,,,,,
temp,time,mass_loss,dtg,sensitivity,stage
32.488,0,0.000000E+0,-6.04E-02,0.98674,1
33.602,0.5,-2.09E-02,-4.11E-02,0.98583,1
35.32,1,-4.25E-02,-4.67E-02,0.98443,1
38.013,1.5,-6.72E-02,-5.02E-02,0.98223,1
41.606,2,-9.38E-02,-5.86E-02,0.9793,1
45.791,2.5,-0.1245,-6.70E-02,0.97588,1
50.358,3,-0.15946,-7.41E-02,0.97215,1
55.164,3.5,-0.20085,-8.37E-02,0.96822,1
60.214,4,-0.24574,-9.01E-02,0.96409,1
65.6,4.5,-0.2878,-8.53E-02,0.95967,1
71.212,5,-0.3293,-8.34E-02,0.95507,1
76.983,5.5,-0.36878,-6.63E-02,0.95034,1
82.9,6,-0.39866,-5.79E-02,0.94549,1
88.859,6.5,-0.42618,-4.19E-02,0.9406,1
94.849,7,-0.43937,-0.11544,0.93569,1
100.45,7.5,-0.44986,-1.53E-02,0.9311,2
104.881,8,-0.4546,-7.34E-03,0.92747,2
108.011,8.5,-0.45753,-3.97E-03,0.92491,2
109.977,9,-0.45934,-3.02E-03,0.9233,2
111.014,9.5,-0.46171,-1.44E-03,0.92246,2
111.399,10,-0.45764,3.549400E-4,0.92214,2
111.46,10.5,-0.46035,-3.72E-04,0.92209,2
111.376,11,-0.46001,-1.40E-03,0.92216,2
111.237,11.5,-0.46159,4.291067E-4,0.92227,2
111.02,12,-0.45922,-3.60E-04,0.92245,2
110.722,12.5,-0.46159,-7.02E-04,0.92269,2
110.366,13,-0.45922,-1.67E-04,0.92299,2
109.935,13.5,-0.46159,-4.22E-04,0.92334,2
109.508,14,-0.46091,-6.93E-04,0.92369,2
109.085,14.5,-0.46092,-7.59E-05,0.92403,2
108.683,15,-0.46069,2.088856E-3,0.92436,2
108.309,15.5,-0.4599,-5.03E-05,0.92467,2
107.958,16,-0.45968,-7.64E-04,0.92496,2
107.637,16.5,-0.46091,5.377407E-5,0.92522,2
107.33,17,-0.46024,4.461801E-4,0.92547,2
107.063,17.5,-0.46159,5.950352E-4,0.92569,2
106.81,18,-0.45753,5.690925E-4,0.9259,2
106.595,18.5,-0.46023,-8.12E-04,0.92607,2
106.397,19,-0.46147,-4.42E-04,0.92623,2
106.228,19.5,-0.4608,3.799875E-5,0.92637,2
106.07,20,-0.45764,-1.41E-03,0.9265,2
105.933,20.5,-0.46305,-1.47E-03,0.92661,2
105.791,21,-0.46305,-1.72E-04,0.92673,2
105.697,21.5,-0.46102,2.291009E-4,0.92681,2
105.605,22,-0.46306,6.786132E-4,0.92688,2
105.522,22.5,-0.46001,6.448201E-4,0.92695,2
105.457,23,-0.46272,-7.47E-04,0.927,2
105.388,23.5,-0.46171,-7.12E-05,0.92706,2
105.356,24,-0.46171,1.656930E-3,0.92709,2
105.328,24.5,-0.46069,2.835747E-4,0.92711,2
105.299,25,-0.46171,-1.11E-03,0.92713,2
105.262,25.5,-0.4617,-1.21E-03,0.92716,2
105.225,26,-0.46271,4.663122E-4,0.92719,2
105.204,26.5,-0.46136,6.275797E-4,0.92721,2
105.188,27,-0.46305,-1.55E-03,0.92722,2
105.161,27.5,-0.46306,-6.92E-04,0.92725,2
105.128,28,-0.4617,3.156698E-4,0.92727,2
105.088,28.5,-0.46204,1.113826E-4,0.92731,2
105.083,29,-0.46306,-1.52E-03,0.92731,2
105.069,29.5,-0.46464,-7.35E-04,0.92732,2
105.083,30,-0.46328,1.604186E-3,0.92731,2
105.074,30.5,-0.46261,5.967412E-4,0.92732,2
105.05,31,-0.46295,-1.40E-03,0.92734,2
105.046,31.5,-0.46498,-4.89E-04,0.92734,2
105.037,32,-0.46317,1.386216E-4,0.92735,2
105.036,32.5,-0.46317,-7.85E-04,0.92735,2
105.056,33,-0.46317,-6.80E-04,0.92733,2
105.07,33.5,-0.46418,-6.18E-04,0.92732,2
105.053,34,-0.46283,-1.22E-04,0.92733,2
105.053,34.5,-0.46419,-5.11E-04,0.92733,2
105.037,35,-0.46453,-4.06E-04,0.92735,2
105.041,35.5,-0.46384,-1.00E-03,0.92734,2
105.027,36,-0.46554,-4.32E-04,0.92736,2
105.032,36.5,-0.46486,5.939614E-4,0.92735,2
105.029,37,-0.46621,-3.47E-04,0.92735,2
105.033,37.5,-0.46621,-1.43E-03,0.92735,2
105.02,38,-0.46554,-1.10E-03,0.92736,2
104.998,38.5,-0.46689,-1.21E-03,0.92738,2
105.008,39,-0.46892,4.437934E-4,0.92737,2
105.009,39.5,-0.46621,4.598926E-4,0.92737,2
105.013,40,-0.46723,-2.97E-04,0.92737,2
105.016,40.5,-0.46824,2.372437E-4,0.92736,2
104.996,41,-0.46622,2.691526E-4,0.92738,2
105.007,41.5,-0.46723,-9.66E-04,0.92737,2
105.009,42,-0.46723,-1.75E-03,0.92737,2
104.984,42.5,-0.47016,-1.42E-04,0.92739,2
104.986,43,-0.46711,-4.73E-04,0.92739,2
104.988,43.5,-0.46915,1.980172E-4,0.92739,2
104.998,44,-0.4678,8.950978E-4,0.92738,2
105.007,44.5,-0.46576,7.098054E-4,0.92737,2
105.002,45,-0.46847,-1.38E-03,0.92738,2
105.03,45.5,-0.46948,-1.05E-04,0.92735,2
105.022,46,-0.46983,3.766049E-4,0.92736,2
105.01,46.5,-0.46814,1.254270E-4,0.92737,2
105.017,47,-0.46745,-3.84E-04,0.92736,2
105.011,47.5,-0.46881,-6.19E-04,0.92737,2
105.028,48,-0.46881,-5.55E-04,0.92735,2
105.025,48.5,-0.46813,-1.44E-03,0.92736,2
105.032,49,-0.4705,5.041804E-4,0.92735,2
105.037,49.5,-0.46914,1.182651E-3,0.92735,2
105.028,50,-0.46881,-9.05E-05,0.92735,2
105.035,50.5,-0.46847,-9.06E-04,0.92735,2
105.02,51,-0.46881,-2.26E-03,0.92736,2
105.016,51.5,-0.47253,-8.99E-04,0.92736,2
105.019,52,-0.46982,1.831025E-5,0.92736,2
105.014,52.5,-0.47083,-9.67E-04,0.92737,2
105.009,53,-0.47185,3.373552E-4,0.92737,2
105.019,53.5,-0.4705,-1.93E-04,0.92736,2
105.022,54,-0.47219,-1.19E-03,0.92736,2
105.014,54.5,-0.47084,7.104650E-5,0.92737,2
105.011,55,-0.47287,-8.22E-05,0.92737,2
105.003,55.5,-0.47118,-1.10E-03,0.92738,2
105.014,56,-0.4705,-3.28E-04,0.92737,2
105.017,56.5,-0.47219,2.019959E-4,0.92736,2
105.006,57,-0.47186,3.562355E-4,0.92737,2
105.011,57.5,-0.4732,6.258464E-4,0.92737,2
105.012,58,-0.47152,7.684991E-4,0.92737,2
105.018,58.5,-0.47084,-3.99E-04,0.92736,2
105.018,59,-0.47219,-2.37E-03,0.92736,2
104.999,59.5,-0.47388,-1.14E-03,0.92738,2
104.998,60,-0.47252,-3.32E-04,0.92738,2
104.995,60.5,-0.47388,-5.49E-05,0.92738,2
104.991,61,-0.47388,1.804954E-4,0.92738,2
104.992,61.5,-0.47355,-1.50E-04,0.92738,2
105.007,62,-0.47321,-4.12E-04,0.92737,2
104.999,62.5,-0.4749,-1.24E-03,0.92738,2
104.977,63,-0.47422,3.205290E-4,0.9274,2
104.987,63.5,-0.4732,3.178565E-4,0.92739,2
104.996,64,-0.47422,-2.85E-04,0.92738,2
105.009,64.5,-0.4732,-7.44E-04,0.92737,2
105.013,65,-0.47455,-4.75E-04,0.92737,2
105.035,65.5,-0.47659,-4.86E-04,0.92735,2
105.03,66,-0.47501,-1.61E-04,0.92735,2
105.009,66.5,-0.47365,1.930026E-4,0.92737,2
105.028,67,-0.47535,-3.58E-04,0.92735,2
105.026,67.5,-0.47467,1.008552E-3,0.92736,2
105.024,68,-0.47366,3.447791E-5,0.92736,2
105.034,68.5,-0.47501,-1.20E-03,0.92735,2
105.035,69,-0.47603,-1.05E-03,0.92735,2
105.053,69.5,-0.47603,-1.98E-04,0.92733,2
105.034,70,-0.47602,3.901133E-4,0.92735,2
105.043,70.5,-0.47434,-7.62E-04,0.92734,2
105.027,71,-0.47704,-1.44E-03,0.92736,2
105.008,71.5,-0.47771,-4.72E-04,0.92737,2
105.004,72,-0.47636,-7.51E-05,0.92737,2
105.006,72.5,-0.47738,-4.61E-05,0.92737,2
105.021,73,-0.47737,-5.00E-04,0.92736,2
105.018,73.5,-0.47737,-5.36E-05,0.92736,2
105.018,74,-0.47805,-2.07E-04,0.92736,2
105.012,74.5,-0.47805,-2.78E-04,0.92737,2
105.006,75,-0.4767,4.566753E-4,0.92737,2
105.015,75.5,-0.47805,-7.27E-04,0.92737,2
105.004,76,-0.47941,-2.01E-05,0.92737,2
105.02,76.5,-0.47772,-5.77E-05,0.92736,2
105.035,77,-0.47772,-6.15E-04,0.92735,2
105.018,77.5,-0.47806,-1.27E-03,0.92736,2
105.018,78,-0.47907,-3.59E-04,0.92736,2
105.029,78.5,-0.47907,7.159688E-4,0.92735,2
105.017,79,-0.47874,-1.41E-04,0.92736,2
105.027,79.5,-0.48008,-5.88E-04,0.92736,2
105.013,80,-0.47839,-4.96E-04,0.92737,2
105.018,80.5,-0.47975,-9.47E-04,0.92736,2
105.013,81,-0.48043,-3.01E-04,0.92737,2
105.013,81.5,-0.47907,7.283338E-4,0.92737,2
105.01,82,-0.47941,-5.38E-04,0.92737,2
104.999,82.5,-0.48076,-1.13E-03,0.92738,2
105.001,83,-0.48043,-4.30E-04,0.92738,2
104.996,83.5,-0.4811,-4.11E-04,0.92738,2
105.008,84,-0.4811,2.840197E-4,0.92737,2
105.002,84.5,-0.48133,-8.04E-04,0.92738,2
105.005,85,-0.482,1.376128E-3,0.92737,2
105.01,85.5,-0.47895,6.650496E-5,0.92737,2
105.011,86,-0.48167,-1.16E-03,0.92737,2
104.988,86.5,-0.48302,-1.21E-03,0.92739,2
104.983,87,-0.48132,2.811044E-4,0.92739,2
104.974,87.5,-0.48166,-3.38E-04,0.9274,2
104.984,88,-0.482,-9.20E-04,0.92739,2
104.996,88.5,-0.48268,-2.02E-04,0.92738,2
105.004,89,-0.48201,-2.90E-04,0.92737,2
104.996,89.5,-0.482,-1.14E-03,0.92738,2
105.001,90,-0.48132,-5.84E-04,0.92738,2
104.983,90.5,-0.48347,7.546598E-4,0.92739,2
104.983,91,-0.48279,3.033924E-4,0.92739,2
104.96,91.5,-0.48414,-1.05E-04,0.92741,2
104.969,92,-0.48313,-8.61E-05,0.9274,2
104.967,92.5,-0.48212,-7.36E-04,0.9274,2
104.968,93,-0.48313,-3.78E-04,0.9274,2
105.005,93.5,-0.48279,7.416205E-4,0.92737,2
105.015,94,-0.48212,1.869385E-4,0.92737,2
105.013,94.5,-0.48313,-2.24E-03,0.92737,2
105.008,95,-0.48595,-1.48E-03,0.92737,2
105.023,95.5,-0.48256,1.390235E-3,0.92736,2
105.007,96,-0.48459,2.397951E-4,0.92737,2
105.003,96.5,-0.48459,-3.44E-05,0.92738,2
105.015,97,-0.48189,-9.74E-05,0.92737,2
105.038,97.5,-0.48425,2.894074E-4,0.92735,2
105.034,98,-0.48358,-6.87E-04,0.92735,2
105.03,98.5,-0.48595,-2.66E-05,0.92735,2
105.043,99,-0.48595,-4.79E-04,0.92734,2
105.093,99.5,-0.48426,-4.71E-04,0.9273,2
105.087,100,-0.48493,-4.40E-05,0.92731,2
105.087,100.5,-0.48561,5.026630E-5,0.92731,2
105.084,101,-0.48392,-2.60E-04,0.92731,2
105.071,101.5,-0.48594,5.725565E-4,0.92732,2
105.071,102,-0.48324,5.146151E-4,0.92732,2
105.054,102.5,-0.4846,-1.31E-03,0.92733,2
105.047,103,-0.48595,-1.98E-03,0.92734,2
105.043,103.5,-0.48628,4.313825E-4,0.92734,2
105.028,104,-0.48561,5.662201E-4,0.92735,2
105.051,104.5,-0.48595,-8.73E-04,0.92734,2
105.026,105,-0.48595,-9.71E-04,0.92736,2
105.014,105.5,-0.48516,1.161166E-5,0.92737,2
104.984,106,-0.48584,1.226470E-4,0.92739,2
104.977,106.5,-0.48651,2.385788E-4,0.9274,2
104.985,107,-0.48448,9.088721E-5,0.92739,2
104.99,107.5,-0.48854,-1.33E-03,0.92739,2
104.99,108,-0.48787,1.120884E-4,0.92739,2
104.999,108.5,-0.48719,-3.04E-04,0.92738,2
104.983,109,-0.4855,-4.12E-04,0.92739,2
104.995,109.5,-0.48685,5.757152E-4,0.92738,2
105.007,110,-0.48448,9.562516E-6,0.92737,2
105.002,110.5,-0.48719,-1.89E-03,0.92738,2
105.014,111,-0.48787,-5.97E-04,0.92737,2
105.031,111.5,-0.48821,-4.47E-04,0.92735,2
105.026,112,-0.49046,7.987267E-5,0.92736,2
105.026,112.5,-0.48573,-3.34E-04,0.92736,2
105.022,113,-0.48956,-2.51E-04,0.92736,2
105.025,113.5,-0.48753,8.554363E-4,0.92736,2
105.021,114,-0.48786,-1.23E-03,0.92736,2
105.004,114.5,-0.49057,-9.14E-04,0.92737,2
104.994,115,-0.48922,-7.26E-04,0.92738,2
104.993,115.5,-0.48922,6.852584E-4,0.92738,2
104.998,116,-0.48787,8.550688E-4,0.92738,2
105.001,116.5,-0.48798,-4.24E-04,0.92738,2
105.014,117,-0.49013,-1.41E-03,0.92737,2
105.038,117.5,-0.48911,9.204198E-4,0.92735,2
105.019,118,-0.48775,1.438028E-4,0.92736,2
105.02,118.5,-0.48945,-1.15E-03,0.92736,2
105.004,119,-0.49012,1.351658E-3,0.92737,2
105.01,119.5,-0.48843,4.592120E-4,0.92737,2
104.995,120,-0.48978,-5.48E-04,0.92738,2
104.994,120.5,-0.48775,1.050747E-4,0.92738,2
105.008,121,-0.48843,-2.19E-04,0.92737,2
105.005,121.5,-0.48776,-6.90E-04,0.92737,2
105.018,122,-0.48843,-8.41E-04,0.92736,2
105.015,122.5,-0.48944,4.523676E-4,0.92737,2
105.017,123,-0.48888,-5.44E-04,0.92736,2
105.022,123.5,-0.49024,-9.65E-04,0.92736,2
105.014,124,-0.4899,1.200888E-4,0.92737,2
105.026,124.5,-0.49023,-3.61E-04,0.92736,2
105.028,125,-0.49023,-6.12E-04,0.92735,2
105.044,125.5,-0.49023,6.663560E-4,0.92734,2
105.048,126,-0.49057,-3.51E-04,0.92734,2
105.039,126.5,-0.49091,-5.16E-04,0.92735,2
105.029,127,-0.49091,7.182888E-16,0.92735,3
105.328,127.5,-0.49102,3.767789E-4,0.92711,3
107.035,128,-0.49182,-9.26E-04,0.92571,3
110.491,128.5,-0.48911,-1.20E-03,0.92288,3
115.002,129,-0.49429,-2.12E-04,0.91919,3
119.793,129.5,-0.49171,1.459180E-3,0.91528,3
124.541,130,-0.4917,-1.34E-04,0.9114,3
129.372,130.5,-0.4917,-5.33E-04,0.90746,3
134.487,131,-0.4917,-5.64E-05,0.9033,3
139.961,131.5,-0.49441,-2.30E-03,0.89885,3
145.655,132,-0.49283,-1.84E-03,0.89422,3
151.419,132.5,-0.49554,-2.23E-03,0.88955,3
157.131,133,-0.49621,-2.37E-03,0.88493,3
162.8,133.5,-0.49825,1.843658E-5,0.88036,3
168.424,134,-0.49723,-4.27E-03,0.87583,3
174.033,134.5,-0.50106,-3.92E-03,0.87133,3
179.619,135,-0.50343,-3.30E-03,0.86686,3
185.179,135.5,-0.50523,-8.29E-03,0.86242,3
190.646,136,-0.50658,-7.58E-03,0.85807,3
196.094,136.5,-0.51065,-6.63E-03,0.85374,3
201.519,137,-0.52046,-1.67E-02,0.84945,3
206.909,137.5,-0.52554,-1.56E-02,0.8452,3
212.22,138,-0.53546,-2.28E-02,0.84103,3
217.505,138.5,-0.54651,-2.84E-02,0.83689,3
222.74,139,-0.56298,-3.16E-02,0.8328,3
227.924,139.5,-0.58192,-4.14E-02,0.82877,3
233.076,140,-0.60403,-5.29E-02,0.82478,3
238.214,140.5,-0.63526,-6.43E-02,0.82081,3
243.333,141,-0.66797,-7.87E-02,0.81688,3
248.435,141.5,-0.71161,-9.09E-02,0.81297,3
253.512,142,-0.76259,-0.11128,0.8091,3
258.594,142.5,-0.82631,-0.13964,0.80524,3
263.634,143,-0.90334,-0.18956,0.80143,3
268.688,143.5,-1.01024,-0.24276,0.79763,3
273.728,144,-1.14535,-0.31432,0.79386,3
278.741,144.5,-1.32252,-0.37096,0.79012,3
283.758,145,-1.52281,-0.42531,0.7864,3
288.758,145.5,-1.74746,-0.46218,0.78271,3
293.741,146,-1.9835,-0.48885,0.77905,3
298.735,146.5,-2.23341,-0.50393,0.77539,3
303.746,147,-2.48625,-0.51248,0.77175,3
308.734,147.5,-2.748,-0.52506,0.76814,3
313.726,148,-3.0119,-0.53513,0.76455,3
318.721,148.5,-3.28098,-0.55122,0.76098,3
323.729,149,-3.55987,-0.5733,0.75741,3
328.712,149.5,-3.85557,-0.59843,0.75389,3
333.702,150,-4.16164,-0.63838,0.75038,3
338.682,150.5,-4.49399,-0.69526,0.74689,3
343.671,151,-4.86051,-0.7723,0.74342,3
348.63,151.5,-5.26797,-0.87494,0.74,3
353.608,152,-5.73418,-0.98356,0.73658,3
358.573,152.5,-6.2516,-1.06766,0.73319,3
363.55,153,-6.79563,-1.0614,0.72981,3
368.55,153.5,-7.30188,-0.89817,0.72644,3
373.673,154,-7.68024,-0.57475,0.72301,3
378.548,154.5,-7.88075,-0.27364,0.71977,3
383.39,155,-7.96556,-0.12115,0.71657,3
388.333,155.5,-8.01304,-8.54E-02,0.71333,3
393.306,156,-8.04969,-7.17E-02,0.71009,3
398.26,156.5,-8.08465,-6.77E-02,0.70688,3
403.222,157,-8.11724,-6.66E-02,0.70369,3
408.209,157.5,-8.14859,-6.06E-02,0.70051,3
413.192,158,-8.18356,-6.08E-02,0.69735,3
418.175,158.5,-8.20814,-5.23E-02,0.69421,3
423.138,159,-8.23521,-5.38E-02,0.69111,3
428.137,159.5,-8.26002,-4.82E-02,0.68802,3
433.095,160,-8.28268,-4.45E-02,0.68497,3
438.07,160.5,-8.30547,-4.50E-02,0.68193,3
443.039,161,-8.32903,-4.25E-02,0.67892,3
448.002,161.5,-8.3499,-3.94E-02,0.67594,3
452.98,162,-8.36738,-3.78E-02,0.67297,3
457.962,162.5,-8.38474,-3.35E-02,0.67002,3
462.939,163,-8.40291,-3.53E-02,0.6671,3
467.922,163.5,-8.42005,-3.41E-02,0.6642,3
472.929,164,-8.43572,-3.15E-02,0.66131,3
477.921,164.5,-8.45377,-3.60E-02,0.65845,3
482.907,165,-8.46865,-3.13E-02,0.65562,3
487.891,165.5,-8.48512,-3.31E-02,0.65281,3
492.882,166,-8.50079,-2.95E-02,0.65002,3
497.866,166.5,-8.51771,-3.34E-02,0.64726,3
502.85,167,-8.5335,-2.95E-02,0.64453,3
507.839,167.5,-8.54884,-3.40E-02,0.64181,3
512.823,168,-8.56473,-3.00E-02,0.63913,3
517.814,168.5,-8.5812,-3.20E-02,0.63646,3
522.805,169,-8.59529,-3.09E-02,0.63381,3
527.795,169.5,-8.61166,-3.08E-02,0.63119,3
532.786,170,-8.62519,-2.92E-02,0.62859,3
537.772,170.5,-8.64154,-2.86E-02,0.62602,3
542.759,171,-8.65315,-3.02E-02,0.62347,3
547.752,171.5,-8.66984,-2.69E-02,0.62094,3
552.73,172,-8.68259,-2.93E-02,0.61844,3
557.725,172.5,-8.69905,-2.83E-02,0.61595,3
562.712,173,-8.71383,-2.69E-02,0.6135,3
567.699,173.5,-8.72691,-2.95E-02,0.61106,3
572.7,174,-8.74055,-2.79E-02,0.60864,3
577.685,174.5,-8.7533,-2.67E-02,0.60625,3
582.688,175,-8.76671,-2.49E-02,0.60388,3
587.681,175.5,-8.78025,-2.78E-02,0.60153,3
592.671,176,-8.79277,-2.63E-02,0.5992,3
597.665,176.5,-8.80766,-2.33E-02,0.5969,3
602.661,177,-8.81826,-2.54E-02,0.59462,3
607.664,177.5,-8.83224,-2.51E-02,0.59235,3
612.66,178,-8.84465,-2.30E-02,0.59011,3
617.656,178.5,-8.85434,-2.34E-02,0.58789,3
622.666,179,-8.86472,-2.07E-02,0.58569,3
627.648,179.5,-8.87611,-2.11E-02,0.58352,3
632.682,180,-8.88705,-2.14E-02,0.58135,3
637.673,180.5,-8.89675,-2.16E-02,0.57922,3
642.665,181,-8.90791,-2.24E-02,0.5771,3
647.665,181.5,-8.91863,-1.86E-02,0.57501,3
652.668,182,-8.92855,-1.67E-02,0.57293,3
657.673,182.5,-8.93532,-1.83E-02,0.57088,3
662.676,183,-8.94547,-1.92E-02,0.56884,3
667.67,183.5,-8.95607,-1.61E-02,0.56683,3
672.659,184,-8.96182,-1.80E-02,0.56483,3
677.669,184.5,-8.97096,-1.69E-02,0.56285,3
682.663,185,-8.97885,-1.60E-02,0.5609,3
687.677,185.5,-8.99317,-1.93E-02,0.55895,3
692.69,186,-8.99757,-1.38E-02,0.55703,3
697.676,186.5,-9.00389,-1.53E-02,0.55513,3
702.676,187,-9.01099,-1.76E-02,0.55325,3
707.681,187.5,-9.02159,-1.61E-02,0.55138,3
712.687,188,-9.02904,-1.63E-02,0.54953,3
717.697,188.5,-9.03411,-1.24E-02,0.54769,3
722.708,189,-9.04268,-1.44E-02,0.54587,3
727.7,189.5,-9.05091,-1.60E-02,0.54408,3
732.707,190,-9.05734,-1.54E-02,0.5423,3
737.71,190.5,-9.06444,-1.25E-02,0.54053,3
742.711,191,-9.07279,-1.37E-02,0.53878,3
747.718,191.5,-9.08114,-5.71E-02,0.53705,4
745.066,192,-9.08689,-1.05E-02,0.53796,4
740.066,192.5,-9.09252,-1.21E-02,0.5397,4
735.856,193,-9.09805,-9.20E-03,0.54118,4
731.552,193.5,-9.10358,-1.28E-02,0.54271,4
727.055,194,-9.10967,-8.81E-03,0.54431,4
722.402,194.5,-9.11463,-1.14E-02,0.54598,4
717.628,195,-9.11733,-9.43E-03,0.54772,4
712.794,195.5,-9.12321,-9.79E-03,0.54949,4
707.899,196,-9.1303,-1.02E-02,0.5513,4
702.983,196.5,-9.13482,-9.55E-03,0.55313,4
698.03,197,-9.13617,-1.01E-02,0.555,4
693.067,197.5,-9.14395,-8.37E-03,0.55688,4
688.085,198,-9.14813,-9.90E-03,0.5588,4
683.101,198.5,-9.15151,-9.91E-03,0.56073,4
678.116,199,-9.15557,-7.13E-03,0.56268,4
673.114,199.5,-9.15895,-8.18E-03,0.56465,4
668.126,200,-9.16402,-7.44E-03,0.56664,4
663.12,200.5,-9.16707,-7.87E-03,0.56866,4
658.114,201,-9.17214,-7.93E-03,0.57069,4
653.112,201.5,-9.17621,-9.45E-03,0.57275,4
648.121,202,-9.18027,-6.78E-03,0.57482,4
643.114,202.5,-9.18466,-1.05E-02,0.57691,4
638.116,203,-9.1877,-5.77E-03,0.57903,4
633.098,203.5,-9.19143,-9.62E-03,0.58117,4
628.105,204,-9.19617,-7.16E-03,0.58332,4
623.1,204.5,-9.19989,-8.31E-03,0.5855,4
618.099,205,-9.20496,-6.54E-03,0.5877,4
613.116,205.5,-9.20869,-6.82E-03,0.58991,4
608.108,206,-9.20868,-6.96E-03,0.59215,4
603.116,206.5,-9.21614,-1.72E-02,0.59441,5
603.331,207,-9.23299,-0.45765,0.59431,5
607.537,207.5,-9.71628,-0.89397,0.59241,5
608.503,208,-10.27996,-0.69221,0.59197,5
607.455,208.5,-10.43884,-0.21721,0.59245,5
608.046,209,-10.43512,-2.26E-02,0.59218,5
609.349,209.5,-10.43885,-2.68E-03,0.59159,5
610.741,210,-10.43895,-1.93E-03,0.59097,5
612.365,210.5,-10.43896,-1.80E-03,0.59024,5
614.1399,211,-10.44051,-1.22E-03,0.58945,5
615.982,211.5,-10.44009,-7.71E-04,0.58863,5
617.85,212,-10.44156,-8.92E-04,0.58781,5
619.733,212.5,-10.44186,-6.61E-04,0.58698,5
621.602,213,-10.44068,7.197372E-4,0.58616,5
623.4775,213.5,-10.44029,8.124484E-4,0.58533,5
625.328,214,-10.44134,-6.86E-04,0.58453,5
627.195,214.5,-10.44304,-2.22E-04,0.58372,5
629.069,215,-10.44162,5.632748E-4,0.5829,5
630.942,215.5,-10.44234,-1.14E-03,0.5821,5
632.783,216,-10.44137,-1.54E-03,0.5813,5
634.627,216.5,-10.44271,-7.49E-04,0.58051,5
636.4531,217,-10.44403,-5.67E-04,0.57973,5
638.308,217.5,-10.44369,-1.16E-03,0.57895,5
640.149,218,-10.44505,-2.10E-04,0.57817,5
641.997,218.5,-10.44256,-4.33E-04,0.57739,5
643.82,219,-10.44391,-6.79E-04,0.57662,5
645.649,219.5,-10.44459,-5.37E-05,0.57585,5
647.4792,220,-10.44558,-6.74E-04,0.57509,5
649.308,220.5,-10.44562,-5.49E-04,0.57432,5
651.137,221,-10.44595,-3.68E-04,0.57357,5
652.9606,221.5,-10.44527,5.542460E-5,0.57281,5
654.7625,222,-10.44482,-2.00E-04,0.57207,5
656.592,222.5,-10.44482,-6.33E-04,0.57132,5
658.408,223,-10.4455,-5.44E-04,0.57057,5
660.223,223.5,-10.44504,-4.07E-04,0.56983,5
662.042,224,-10.44618,1.789506E-5,0.5691,5
663.857,224.5,-10.44516,-6.11E-05,0.56836,5
665.659,225,-10.44718,-1.49E-03,0.56763,5
667.469,225.5,-10.4485,-1.41E-03,0.56691,5
669.273,226,-10.44691,-8.81E-04,0.56618,5
671.089,226.5,-10.4482,-1.65E-03,0.56546,5
672.897,227,-10.44998,-9.87E-04,0.56474,5
674.704,227.5,-10.45136,8.429065E-5,0.56402,5
676.509,228,-10.44922,-5.52E-04,0.56331,5
678.324,228.5,-10.45024,-9.02E-04,0.5626,5
680.122,229,-10.45058,2.540027E-4,0.56189,5
681.9223,229.5,-10.45153,2.508030E-4,0.56119,5
683.727,230,-10.44854,-8.21E-04,0.56048,5
685.538,230.5,-10.45114,-1.09E-03,0.55978,5
687.326,231,-10.44977,-1.65E-04,0.55909,5
689.129,231.5,-10.45113,-5.82E-04,0.55839,5
690.929,232,-10.45147,-7.82E-04,0.5577,5
692.736,232.5,-10.45102,-3.23E-04,0.55701,5
694.537,233,-10.45147,6.331431E-5,0.55632,5
696.3301,233.5,-10.45019,6.080706E-4,0.55564,5
698.142,234,-10.45113,-8.26E-05,0.55495,5
699.952,234.5,-10.45248,-7.94E-04,0.55427,5
701.765,235,-10.45183,-4.97E-04,0.55359,5
703.557,235.5,-10.45282,1.407677E-3,0.55292,5
705.355,236,-10.44877,-4.82E-04,0.55224,5
707.159,236.5,-10.45181,-2.08E-03,0.55157,5
708.965,237,-10.45331,-5.89E-05,0.5509,5
710.765,237.5,-10.45317,9.527229E-6,0.55024,5
712.557,238,-10.4535,-6.51E-04,0.54957,5
714.3642,238.5,-10.45335,1.409333E-4,0.54891,5
716.1734,239,-10.45254,-8.74E-05,0.54825,5
717.97,239.5,-10.45383,-1.20E-03,0.54759,5
719.775,240,-10.45427,-6.51E-04,0.54694,5
721.58,240.5,-10.4538,4.013475E-4,0.54628,5
723.378,241,-10.45338,5.991788E-4,0.54563,5
725.182,241.5,-10.45216,2.266329E-4,0.54498,5
726.981,242,-10.45287,-5.44E-04,0.54434,5
728.778,242.5,-10.45379,-1.21E-03,0.54369,5
730.575,243,-10.45384,-1.01E-03,0.54305,5
732.3602,243.5,-10.45485,-6.14E-04,0.54242,5
734.176,244,-10.45381,-2.56E-04,0.54178,5
735.977,244.5,-10.45487,-1.35E-03,0.54114,5
737.781,245,-10.45754,-1.37E-03,0.54051,5
739.579,245.5,-10.45519,5.980853E-4,0.53987,5
741.384,246,-10.45717,5.575168E-4,0.53924,5
743.191,246.5,-10.45547,-9.61E-05,0.53861,5
744.9977,247,-10.45823,-9.68E-05,0.53799,5
746.798,247.5,-10.45488,5.985826E-4,0.53736,5
748.591,248,-10.45553,-1.64E-04,0.53675,5
750.402,248.5,-10.45485,-8.13E-04,0.53612,5
752.206,249,-10.45484,-1.84E-03,0.5355,5
753.996,249.5,-10.45858,-8.84E-04,0.53489,5
755.781,250,-10.45722,8.207822E-6,0.53429,5
757.6,250.5,-10.45655,-3.66E-04,0.53367,5
759.414,251,-10.45579,-4.45E-04,0.53305,5
761.204,251.5,-10.45865,-1.25E-03,0.53245,5
763.009,252,-10.45948,-1.78E-05,0.53184,5
764.807,252.5,-10.45769,1.103161E-3,0.53124,5
766.593,253,-10.45923,-4.14E-04,0.53064,5
768.404,253.5,-10.45779,-2.07E-04,0.53004,5
770.204,254,-10.4579,3.330391E-4,0.52944,5
772.011,254.5,-10.45767,-3.29E-05,0.52885,5
773.809,255,-10.45827,1.985794E-4,0.52825,5
775.61,255.5,-10.45806,6.432344E-5,0.52766,5
777.416,256,-10.45804,-4.32E-04,0.52707,5
779.223,256.5,-10.45862,-6.55E-04,0.52648,5
781.018,257,-10.46072,-1.03E-03,0.52589,5
782.814,257.5,-10.45797,-6.63E-04,0.52531,5
784.612,258,-10.45824,9.232962E-4,0.52473,5
786.415,258.5,-10.45872,-1.82E-04,0.52415,5
788.223,259,-10.45925,-1.75E-04,0.52356,5
790.013,259.5,-10.4579,-3.06E-04,0.52299,5
791.823,260,-10.45993,-4.02E-04,0.52241,5
793.617,260.5,-10.45993,2.495174E-4,0.52184,5
795.433,261,-10.45925,5.213984E-4,0.52126,5
797.231,261.5,-10.45855,5.020462E-5,0.52069,5
799.028,262,-10.45858,2.067043E-4,0.52012,5
800.827,262.5,-10.45825,-7.04E-04,0.51956,5
802.624,263,-10.45891,1.673610E-4,0.51899,5
804.426,263.5,-10.45936,3.530815E-4,0.51843,5
806.244,264,-10.46024,-3.08E-04,0.51786,5
808.052,264.5,-10.45993,-1.34E-04,0.51729,5
809.854,265,-10.45892,1.286399E-4,0.51673,5
811.657,265.5,-10.45892,5.468803E-4,0.51618,5
813.445,266,-10.4596,1.250794E-3,0.51562,5
814.665,266.5,-10.45857,-3.65E-03,0.51525,6
814.609,267,-10.45756,-9.53E-04,0.51526,6
814.708,267.5,-10.4579,-2.10E-04,0.51523,6
814.831,268,-10.45925,-5.83E-04,0.5152,6
814.91,268.5,-10.46061,-1.49E-04,0.51517,6
814.973,269,-10.45959,1.717326E-5,0.51515,6
815.004,269.5,-10.4596,-1.08E-03,0.51514,6
815.035,270,-10.45959,-1.23E-04,0.51513,6
815.05,270.5,-10.4606,1.529547E-4,0.51513,6
815.061,271,-10.46162,-6.05E-04,0.51513,6
815.064,271.5,-10.46061,-9.22E-04,0.51512,6
815.069,272,-10.46128,4.652711E-4,0.51512,6
815.076,272.5,-10.46128,6.497555E-4,0.51512,6
815.075,273,-10.45993,4.379373E-4,0.51512,6
815.062,273.5,-10.45857,-9.72E-05,0.51512,6
815.078,274,-10.4596,-3.97E-04,0.51512,6
815.07,274.5,-10.46095,-1.92E-04,0.51512,6
815.07,275,-10.46129,3.231854E-4,0.51512,6
815.064,275.5,-10.46095,6.221419E-5,0.51512,6
815.06,276,-10.4596,2.383976E-4,0.51513,6
815.064,276.5,-10.46027,-6.74E-04,0.51512,6
815.059,277,-10.46162,-4.22E-04,0.51513,6
815.053,277.5,-10.46196,-1.33E-04,0.51513,6
815.056,278,-10.46061,-1.67E-04,0.51513,6
815.051,278.5,-10.46162,-1.72E-04,0.51513,6
815.048,279,-10.46026,-1.11E-03,0.51513,6
815.058,279.5,-10.46297,-1.39E-03,0.51513,6
815.042,280,-10.4623,-1.18E-04,0.51513,6
815.046,280.5,-10.4623,5.708027E-4,0.51513,6
815.037,281,-10.46263,-3.29E-04,0.51513,6
815.045,281.5,-10.46263,-3.86E-04,0.51513,6
815.045,282,-10.46263,-4.48E-04,0.51513,6
815.049,282.5,-10.46365,-3.31E-04,0.51513,6
815.03,283,-10.46331,7.738157E-4,0.51513,6
815.039,283.5,-10.46297,-7.48E-04,0.51513,6
815.03,284,-10.46365,-3.70E-04,0.51513,6
815.036,284.5,-10.46264,5.335208E-4,0.51513,6
815.04,285,-10.4623,-4.78E-04,0.51513,6
815.037,285.5,-10.4623,-6.82E-04,0.51513,6
815.04,286,-10.46331,7.073788E-4,0.51513,6
815.031,286.5,-10.46365,1.044079E-3,0.51513,6
815.03,287,-10.46196,-1.33E-04,0.51513,6
815.041,287.5,-10.46229,-2.25E-04,0.51513,6
815.046,288,-10.46094,5.773011E-5,0.51513,6
815.04,288.5,-10.46365,-7.98E-04,0.51513,6
815.028,289,-10.46365,-6.00E-04,0.51514,6
815.032,289.5,-10.46365,9.130130E-5,0.51513,6
815.03,290,-10.46365,-5.91E-05,0.51513,6
815.031,290.5,-10.46365,-5.05E-04,0.51513,6
815.033,291,-10.46297,7.146611E-4,0.51513,6
815.025,291.5,-10.46162,1.009916E-3,0.51514,6
815.031,292,-10.4623,-1.18E-03,0.51513,6
815.025,292.5,-10.46264,5.257580E-4,0.51514,6
815.036,293,-10.46229,8.578865E-4,0.51513,6
815.04,293.5,-10.46128,-6.51E-04,0.51513,6
815.025,294,-10.46399,-1.47E-03,0.51514,6
815.029,294.5,-10.46365,1.009698E-3,0.51514,6
815.029,295,-10.46229,1.192560E-3,0.51514,6
815.039,295.5,-10.46196,1.632763E-4,0.51513,6
815.042,296,-10.46264,-1.18E-03,0.51513,6
815.039,296.5,-10.46366,-8.61E-04,0.51513,6
815.039,297,-10.46365,7.252018E-5,0.51513,6
815.048,297.5,-10.46196,8.235308E-4,0.51513,6
815.034,298,-10.46128,-9.52E-04,0.51513,6
815.029,298.5,-10.46501,-1.00E-03,0.51514,6
815.025,299,-10.46466,8.867983E-4,0.51514,6
815.023,299.5,-10.46399,-3.89E-05,0.51514,6
815.018,300,-10.46297,-1.91E-03,0.51514,6
815.03,300.5,-10.46466,-3.93E-05,0.51513,6
815.032,301,-10.46432,-2.88E-04,0.51513,6
815.027,301.5,-10.46467,-6.48E-04,0.51514,6
815.036,302,-10.46399,-3.77E-04,0.51513,6
815.027,302.5,-10.46467,8.784977E-4,0.51514,6
815.021,303,-10.46365,5.904163E-4,0.51514,6
815.029,303.5,-10.46467,-4.55E-04,0.51514,6
815.04,304,-10.46467,-5.44E-04,0.51513,6
815.037,304.5,-10.46467,8.697531E-5,0.51513,6
815.028,305,-10.46433,1.138572E-4,0.51514,6
815.04,305.5,-10.46399,2.666031E-4,0.51513,6
815.033,306,-10.46534,3.930174E-4,0.51513,6
815.04,306.5,-10.46466,4.707262E-4,0.51513,6
815.038,307,-10.46332,1.251630E-4,0.51513,6
815.04,307.5,-10.46466,2.177918E-7,0.51513,6
815.025,308,-10.46365,3.884319E-4,0.51514,6
815.031,308.5,-10.46433,-8.09E-05,0.51513,6
815.027,309,-10.46365,-6.61E-04,0.51514,6
815.041,309.5,-10.465,3.928223E-5,0.51513,6
815.032,310,-10.46365,-5.66E-04,0.51513,6
815.024,310.5,-10.46298,-2.27E-04,0.51514,6
815.032,311,-10.46433,3.030021E-4,0.51513,6
815.043,311.5,-10.46432,-5.84E-05,0.51513,6
815.034,312,-10.46568,-1.24E-03,0.51513,6
815.034,312.5,-10.465,-8.58E-04,0.51513,6
815.04,313,-10.46636,8.585105E-4,0.51513,6
815.04,313.5,-10.46466,8.459236E-5,0.51513,6
815.033,314,-10.465,-6.46E-04,0.51513,6
815.032,314.5,-10.46534,5.832666E-4,0.51513,6
815.02,315,-10.46568,6.903778E-4,0.51514,6
815.042,315.5,-10.46365,1.829389E-4,0.51513,6
815.037,316,-10.465,-4.70E-04,0.51513,6
815.037,316.5,-10.46466,9.943949E-5,0.51513,6
815.035,317,-10.46433,-4.82E-04,0.51513,6
815.037,317.5,-10.465,-1.30E-03,0.51513,6
815.048,318,-10.46635,-5.81E-04,0.51513,6
815.036,318.5,-10.46636,1.872260E-5,0.51513,6
815.044,319,-10.46568,6.858727E-4,0.51513,6
815.036,319.5,-10.46568,3.472946E-4,0.51513,6
815.029,320,-10.46568,-6.44E-04,0.51514,6
815.02,320.5,-10.46635,-1.09E-03,0.51514,6
815.034,321,-10.46771,-9.31E-04,0.51513,6
815.04,321.5,-10.46771,-1.66E-04,0.51513,6
815.032,322,-10.46704,-3.62E-04,0.51513,6
815.029,322.5,-10.46839,-3.84E-04,0.51514,6
815.036,323,-10.4667,-6.83E-04,0.51513,6
815.04,323.5,-10.46918,-5.63E-05,0.51513,6
815.043,324,-10.46546,-6.44E-04,0.51513,6
815.033,324.5,-10.47053,-5.31E-04,0.51513,6
815.045,325,-10.46782,8.456577E-4,0.51513,6
815.041,325.5,-10.46782,-3.99E-05,0.51513,6
815.034,326,-10.46681,-5.54E-04,0.51513,6
815.034,326.5,-10.46918,-4.61E-04,0.51513,6
815.035,327,-10.46816,1.024157E-3,0.51513,6
815.035,327.5,-10.46782,9.124484E-4,0.51513,6
815.037,328,-10.46647,2.254501E-6,0.51513,6
815.033,328.5,-10.46918,-4.95E-04,0.51513,6
815.042,329,-10.46816,-1.64E-04,0.51513,6
815.026,329.5,-10.46613,3.108358E-5,0.51514,6
815.028,330,-10.46749,4.869910E-4,0.51514,6
815.028,330.5,-10.46749,-2.44E-04,0.51514,6
815.03,331,-10.46884,-6.41E-04,0.51513,6
815.039,331.5,-10.4685,-2.16E-04,0.51513,6
815.037,332,-10.46816,2.365041E-4,0.51513,6
815.037,332.5,-10.46816,-4.85E-05,0.51513,6
815.034,333,-10.4685,2.587155E-5,0.51513,6
815.037,333.5,-10.46681,1.000713E-4,0.51513,6
815.042,334,-10.46749,-3.91E-04,0.51513,6
815.032,334.5,-10.46714,-5.08E-04,0.51513,6
815.03,335,-10.46952,-7.93E-04,0.51513,6
815.031,335.5,-10.46952,-6.55E-04,0.51513,6
815.034,336,-10.46985,-2.53E-04,0.51513,6
815.031,336.5,-10.46952,3.831689E-4,0.51513,6
815.041,337,-10.46952,-3.06E-06,0.51513,6
815.033,337.5,-10.4685,4.347149E-4,0.51513,6
815.044,338,-10.46918,8.036900E-5,0.51513,6
815.038,338.5,-10.46952,4.037265E-5,0.51513,6
815.043,339,-10.46816,-1.34E-04,0.51513,6
815.027,339.5,-10.46884,-5.29E-05,0.51514,6
815.034,340,-10.4685,1.009444E-4,0.51513,6
815.037,340.5,-10.46918,-3.33E-04,0.51513,6
815.04,341,-10.46816,3.633248E-4,0.51513,6
815.041,341.5,-10.46986,-1.80E-04,0.51513,6
815.04,342,-10.46748,-1.33E-04,0.51513,6
815.041,342.5,-10.46748,3.975049E-4,0.51513,6
815.03,343,-10.46884,1.783087E-4,0.51513,6
815.035,343.5,-10.46884,2.075888E-4,0.51513,6
815.042,344,-10.46884,-1.36E-03,0.51513,6
815.043,344.5,-10.46884,-4.36E-04,0.51513,6
815.034,345,-10.46952,7.435304E-4,0.51513,6
815.03,345.5,-10.4685,4.583670E-4,0.51513,6
815.026,346,-10.46782,7.730851E-4,0.51514,6
815.028,346.5,-10.4685,5.016149E-4,0.51514,6
815.024,347,-10.46783,-5.35E-04,0.51514,6
815.03,347.5,-10.4685,-2.48E-04,0.51513,6
815.032,348,-10.4685,3.044355E-5,0.51513,6
815.037,348.5,-10.46816,5.956802E-5,0.51513,6
815.035,349,-10.46952,3.582062E-4,0.51513,6
815.031,349.5,-10.46816,-1.05E-04,0.51513,6
815.034,350,-10.4685,3.093594E-4,0.51513,6
815.021,350.5,-10.4668,-4.86E-04,0.51514,6
815.032,351,-10.4685,-3.36E-04,0.51513,6
815.036,351.5,-10.46917,9.621532E-4,0.51513,6
815.034,352,-10.46917,5.432506E-4,0.51513,6
815.034,352.5,-10.46783,1.182943E-4,0.51513,6
815.031,353,-10.46817,1.021886E-4,0.51513,6
815.041,353.5,-10.46714,-7.10E-04,0.51513,6
815.029,354,-10.46749,-9.09E-04,0.51514,6
815.042,354.5,-10.46918,-3.23E-04,0.51513,6
815.044,355,-10.46985,2.248762E-4,0.51513,6
815.033,355.5,-10.46681,3.771750E-4,0.51513,6
815.035,356,-10.4641,7.594225E-4,0.51513,6
815.041,356.5,-10.46805,8.608820E-4,0.51513,6
815.025,357,-10.46771,-5.61E-04,0.51514,6
815.03,357.5,-10.46771,-1.37E-03,0.51513,6
815.032,358,-10.46941,-7.02E-04,0.51513,6
815.045,358.5,-10.46974,-4.25E-04,0.51513,6
815.035,359,-10.46838,-2.37E-04,0.51513,6
815.035,359.5,-10.46974,-1.10E-03,0.51513,6
815.035,360,-10.47008,-3.98E-04,0.51513,6
815.036,360.5,-10.46906,6.605656E-4,0.51513,6
815.031,361,-10.46974,-9.30E-04,0.51513,6
815.032,361.5,-10.47109,1.820792E-4,0.51513,6
815.028,362,-10.46974,1.626570E-3,0.51514,6
815.039,362.5,-10.46906,5.149416E-4,0.51513,6
815.034,363,-10.46974,-8.70E-04,0.51513,6
815.027,363.5,-10.47008,-5.28E-04,0.51514,6
815.041,364,-10.46771,9.518301E-4,0.51513,6
815.043,364.5,-10.46906,-1.89E-04,0.51513,6
815.047,365,-10.46974,-2.84E-04,0.51513,6
815.03,365.5,-10.46906,1.205459E-3,0.51513,6
815.025,366,-10.46906,4.993725E-4,0.51514,6
815.025,366.5,-10.46771,-6.43E-04,0.51514,6
815.031,367,-10.46906,-8.85E-04,0.51513,6
815.03,367.5,-10.46907,2.404655E-4,0.51513,6
815.024,368,-10.4694,1.521193E-4,0.51514,6
815.019,368.5,-10.46872,-3.69E-04,0.51514,6
815.031,369,-10.46872,-4.46E-04,0.51513,6
815.049,369.5,-10.47007,-4.70E-04,0.51513,6
815.041,370,-10.47042,3.401891E-4,0.51513,6
815.034,370.5,-10.46974,5.593702E-4,0.51513,6
815.031,371,-10.4694,-4.24E-04,0.51513,6
815.039,371.5,-10.47075,1.673594E-4,0.51513,6
815.037,372,-10.46906,1.261800E-4,0.51513,6
815.034,372.5,-10.47109,1.058966E-3,0.51513,6
815.032,373,-10.46771,2.371436E-4,0.51513,6
815.039,373.5,-10.47008,-2.36E-03,0.51513,6
815.032,374,-10.47144,9.096792E-6,0.51513,6
815.044,374.5,-10.46907,1.202211E-3,0.51513,6
815.035,375,-10.47008,-1.12E-03,0.51513,6
815.033,375.5,-10.47042,-1.42E-03,0.51513,6
815.03,376,-10.47042,-2.31E-04,0.51513,6
815.022,376.5,-10.46974,1.220628E-4,0.51514,6
815.033,377,-10.47076,-2.25E-04,0.51513,6
815.037,377.5,-10.47008,-2.27E-05,0.51513,6
815.027,378,-10.47007,-3.47E-04,0.51514,6
815.039,378.5,-10.47042,1.183703E-3,0.51513,6
815.04,379,-10.47076,-1.00E-03,0.51513,6
815.038,379.5,-10.47075,-6.19E-04,0.51513,6
815.027,380,-10.47042,-2.72E-04,0.51514,6
815.037,380.5,-10.47143,-3.92E-04,0.51513,6
815.031,381,-10.47041,1.745098E-4,0.51513,6
815.031,381.5,-10.4721,-1.77E-04,0.51513,6
815.037,382,-10.47109,-5.37E-04,0.51513,6
815.03,382.5,-10.47076,-4.84E-04,0.51513,6
815.025,383,-10.47098,-2.98E-05,0.51514,6
815.036,383.5,-10.47166,1.377787E-4,0.51513,6
815.043,384,-10.47234,-2.84E-04,0.51513,6
815.033,384.5,-10.47233,5.550489E-4,0.51513,6
815.04,385,-10.47165,5.326112E-4,0.51513,6
815.037,385.5,-10.47099,5.359958E-4,0.51513,6
815.04,385.75,-10.47199,1.299215E-3,0.51513,6